# xPDFsuite Configuration #
[PDF]
wavelength = 0.1
dataformat = QA
inputfile = C_Tatania2-40.0-average.chi
backgroundfile = C_Tatania4-0.0-average.chi
mode = xray
bgscale = 1.00747348841
composition = TiO2
outputtype = iq
qmaxinst = 22.0
qmin = 0.0
qmax = 13.4244
rmax = 60.0
rmin = 0.0
rstep = 0.01
rpoly = 1.68

[Misc]
inputdir = /Users/sst/PycharmProjects/pdf-data-reduction-tutorial/notebooks/data/chi_bkgsub_false
savedir = /Users/sst/PycharmProjects/pdf-data-reduction-tutorial/notebooks/data/processed
backgroundfilefull = /Users/sst/PycharmProjects/pdf-data-reduction-tutorial/notebooks/data/chi_bkgsub_false/C_Tatania4-0.0-average.chi

#### start data
#S 1
#L Q($\AA^{-1}$)  intensity(a.u.)
0.0219978 0.277666
0.0447806 -0.163004
0.0675634 0.365535
0.0903462 -0.298069
0.113129 -0.139183
0.135912 -0.282842
0.158695 0.202352
0.181477 0.0916148
0.20426 -0.0237829
0.227043 0.195471
0.249826 1.04646
0.272609 3.07698
0.295391 11.5708
0.318174 21.7453
0.340957 21.1641
0.36374 24.7915
0.386523 -19.6216
0.409305 15.8716
0.432088 19.9549
0.454871 5.97475
0.477654 4.99493
0.500436 4.13143
0.523219 3.74004
0.546002 4.76428
0.568785 1.65337
0.591568 -9.4573
0.61435 -3.27118
0.637133 5.37857
0.659916 4.1763
0.682699 2.44119
0.705482 2.56534
0.728264 5.32676
0.751047 8.40074
0.77383 9.88975
0.796613 10.3894
0.819396 11.202
0.842178 10.9506
0.864961 10.3335
0.887744 11.001
0.910527 11.3526
0.93331 11.3068
0.956092 11.6167
0.978875 11.9045
1.00166 13.1057
1.02444 13.6519
1.04722 14.2934
1.07001 14.241
1.09279 14.8716
1.11557 15.534
1.13835 16.8786
1.16114 17.9572
1.18392 19.2087
1.2067 20.2131
1.22949 21.7998
1.25227 23.3415
1.27505 24.6477
1.29783 25.7653
1.32062 27.153
1.3434 29.2067
1.36618 31.2789
1.38897 32.8976
1.41175 34.2238
1.43453 34.7455
1.45731 34.6003
1.4801 34.628
1.50288 36.2229
1.52566 38.1729
1.54844 39.3718
1.57123 39.5319
1.59401 39.9137
1.61679 40.669
1.63958 41.4693
1.66236 43.2883
1.68514 46.6209
1.70792 52.8244
1.73071 61.7017
1.75349 70.9392
1.77627 75.6869
1.79906 73.0568
1.82184 64.8985
1.84462 53.8186
1.8674 44.8657
1.89019 38.7274
1.91297 34.6212
1.93575 31.9951
1.95854 29.8794
1.98132 27.7258
2.0041 26.1431
2.02688 25.4725
2.04967 24.9101
2.07245 24.3677
2.09523 23.3814
2.11801 22.1649
2.1408 20.5991
2.16358 19.3212
2.18636 18.6172
2.20915 18.5321
2.23193 18.7461
2.25471 18.6064
2.27749 17.9982
2.30028 17.0466
2.32306 16.1691
2.34584 15.5843
2.36863 15.0042
2.39141 14.2035
2.41419 13.4985
2.43697 12.6979
2.45976 12.1782
2.48254 11.5718
2.50532 11.5331
2.52811 12.0725
2.55089 13.4096
2.57367 15.3333
2.59645 17.5461
2.61924 19.7742
2.64202 20.7233
2.6648 19.733
2.68758 17.9573
2.71037 15.8739
2.73315 14.4393
2.75593 13.4568
2.77872 12.7402
2.8015 12.3594
2.82428 12.7805
2.84706 13.9635
2.86985 12.8154
2.89263 12.468
2.91541 11.1306
2.9382 10.6201
2.96098 10.6432
2.98376 10.3067
3.00654 9.52883
3.02933 8.88609
3.05211 8.76084
3.07489 9.0964
3.09767 10.0854
3.12046 10.896
3.14324 11.3128
3.16602 11.5148
3.18881 12.0669
3.21159 13.8102
3.23437 15.9489
3.25715 18.82
3.27994 21.9983
3.30272 23.9465
3.3255 23.0923
3.34829 19.6846
3.37107 16.2336
3.39385 14.1148
3.41663 13.0776
3.43942 12.8325
3.4622 12.4006
3.48498 11.7398
3.50777 11.0779
3.53055 11.1502
3.55333 11.6217
3.57611 12.6706
3.5989 14.1418
3.62168 15.9151
3.64446 18.2074
3.66724 20.4603
3.69003 22.9382
3.71281 24.389
3.73559 24.5835
3.75838 23.7714
3.78116 21.876
3.80394 19.5651
3.82672 17.749
3.84951 16.684
3.87229 16.3509
3.89507 16.3963
3.91786 15.172
3.94064 14.4067
3.96342 13.8947
3.9862 13.788
4.00899 13.6413
4.03177 14.1233
4.05455 14.8466
4.07733 15.5025
4.10012 15.8115
4.1229 15.8299
4.14568 16.3443
4.16847 17.6195
4.19125 18.9968
4.21403 20.1426
4.23681 19.9989
4.2596 19.1583
4.28238 18.0548
4.30516 16.4559
4.32795 15.1487
4.35073 13.8877
4.37351 12.841
4.39629 12.2961
4.41908 12.0029
4.44186 11.7069
4.46464 11.5686
4.48743 12.2615
4.51021 11.5623
4.53299 11.1877
4.55577 11.8769
4.57856 12.8102
4.60134 13.7774
4.62412 14.255
4.6469 14.5372
4.66969 14.6197
4.69247 13.3581
4.71525 12.0326
4.73804 10.6823
4.76082 9.56104
4.7836 9.17182
4.80638 9.44244
4.82917 9.54805
4.85195 9.62007
4.87473 10.2372
4.89752 10.6822
4.9203 11.3899
4.94308 11.983
4.96586 12.2653
4.98865 12.1191
5.01143 11.9108
5.03421 10.9721
5.057 10.23
5.07978 10.2278
5.10256 8.95071
5.12534 8.21222
5.14813 7.76677
5.17091 7.48708
5.19369 7.38194
5.21647 7.13664
5.23926 7.31099
5.26204 7.82787
5.28482 7.82698
5.30761 7.85109
5.33039 8.12305
5.35317 8.66224
5.37595 8.6892
5.39874 8.18811
5.42152 7.61996
5.4443 6.66732
5.46709 5.75505
5.48987 5.00581
5.51265 4.41829
5.53543 4.20965
5.55822 3.89301
5.581 3.43686
5.60378 2.91829
5.62656 2.89795
5.64935 3.47627
5.67213 3.82376
5.69491 3.59573
5.7177 3.64557
5.74048 3.57605
5.76326 3.42535
5.78604 3.02713
5.80883 2.68869
5.83161 2.88768
5.85439 3.36594
5.87718 4.09909
5.89996 5.03448
5.92274 5.90525
5.94552 6.0621
5.96831 6.52861
5.99109 6.93597
6.01387 6.67495
6.03666 5.79414
6.05944 5.46617
6.08222 5.24579
6.105 5.21583
6.12779 5.32195
6.15057 5.38221
6.17335 5.60842
6.19613 5.21512
6.21892 5.02747
6.2417 5.3686
6.26448 5.11612
6.28727 4.48153
6.31005 4.31367
6.33283 4.44143
6.35561 4.38779
6.3784 4.00777
6.40118 4.11212
6.42396 4.07761
6.44675 3.99457
6.46953 4.20863
6.49231 4.1763
6.51509 4.49699
6.53788 4.96791
6.56066 4.86856
6.58344 5.1008
6.60622 5.38247
6.62901 5.29962
6.65179 5.28731
6.67457 4.90999
6.69736 4.51933
6.72014 4.32641
6.74292 4.35842
6.7657 4.55488
6.78849 4.84462
6.81127 5.36835
6.83405 5.66864
6.85684 5.57934
6.87962 5.1703
6.9024 4.91879
6.92518 4.77977
6.94797 5.04648
6.97075 5.61652
6.99353 6.34007
7.01632 6.28036
7.0391 5.81139
7.06188 5.54848
7.08466 5.24579
7.10745 5.2145
7.13023 5.12104
7.15301 5.04905
7.17579 4.84469
7.19858 4.55691
7.22136 4.13717
7.24414 3.90259
7.26693 3.94392
7.28971 4.05367
7.31249 3.99457
7.33527 4.19213
7.35806 4.37731
7.38084 4.5952
7.40362 4.96012
7.42641 5.10364
7.44919 4.88281
7.47197 4.79713
7.49475 4.8112
7.51754 4.83078
7.54032 4.87589
7.5631 4.88733
7.58589 4.69059
7.60867 4.61252
7.63145 4.49121
7.65423 4.38965
7.67702 4.43646
7.6998 4.50604
7.72258 4.53754
7.74536 4.51339
7.76815 4.74554
7.79093 5.05134
7.81371 5.05213
7.8365 4.93749
7.85928 4.91438
7.88206 4.86056
7.90484 4.73045
7.92763 4.38923
7.95041 4.22036
7.97319 4.31533
7.99598 4.02756
8.01876 3.91237
8.04154 3.90712
8.06432 3.66404
8.08711 3.48413
8.10989 3.47456
8.13267 3.27857
8.15545 3.15179
8.17824 3.26769
8.20102 3.44352
8.2238 3.60146
8.24659 3.57342
8.26937 3.60175
8.29215 3.53077
8.31493 3.65606
8.33772 3.79385
8.3605 4.12762
8.38328 4.29961
8.40607 4.48037
8.42885 4.61677
8.45163 4.41947
8.47441 4.09136
8.4972 3.90458
8.51998 3.64973
8.54276 3.40331
8.56555 3.31338
8.58833 3.24504
8.61111 3.24658
8.63389 3.14142
8.65668 3.03686
8.67946 2.95066
8.70224 2.91196
8.72502 2.81697
8.74781 2.86315
8.77059 2.9575
8.79337 2.89514
8.81616 2.92742
8.83894 3.02236
8.86172 3.24316
8.8845 3.19536
8.90729 3.09366
8.93007 3.18492
8.95285 3.16172
8.97564 3.12023
8.99842 3.09282
9.0212 2.98251
9.04398 2.98102
9.06677 2.99554
9.08955 2.8377
9.11233 2.58582
9.13511 2.51919
9.1579 2.35707
9.18068 2.37884
9.20346 2.29464
9.22625 2.29861
9.24903 2.29852
9.27181 2.25049
9.29459 2.28732
9.31738 2.43291
9.34016 2.53175
9.36294 2.5503
9.38573 2.62394
9.40851 2.68542
9.43129 2.55445
9.45407 2.4387
9.47686 2.58205
9.49964 2.5815
9.52242 2.57755
9.54521 2.56983
9.56799 2.43575
9.59077 2.33835
9.61355 2.32712
9.63634 2.35462
9.65912 2.25893
9.6819 2.18293
9.70468 2.16266
9.72747 2.35753
9.75025 2.48668
9.77303 2.20085
9.79582 2.15488
9.8186 2.20912
9.84138 2.23228
9.86416 2.21891
9.88695 2.15316
9.90973 2.25182
9.93251 2.28965
9.9553 2.26769
9.97808 2.22908
10.0009 2.21877
10.0236 2.28979
10.0464 2.39178
10.0692 2.47427
10.092 2.54168
10.1148 2.47402
10.1376 2.35587
10.1603 2.46148
10.1831 2.53574
10.2059 2.51815
10.2287 2.57989
10.2515 2.60248
10.2743 2.60401
10.297 2.54191
10.3198 2.62423
10.3426 2.56263
10.3654 2.55381
10.3882 2.56564
10.411 2.65516
10.4337 2.69098
10.4565 2.75721
10.4793 2.68101
10.5021 2.65698
10.5249 2.71047
10.5476 2.70427
10.5704 2.65569
10.5932 2.78265
10.616 2.93327
10.6388 3.07386
10.6616 3.09443
10.6843 3.06769
10.7071 3.07998
10.7299 2.96432
10.7527 2.95895
10.7755 2.88816
10.7983 2.81908
10.821 2.64797
10.8438 2.66244
10.8666 2.71479
10.8894 2.46061
10.9122 2.43455
10.935 2.3759
10.9577 2.39494
10.9805 2.44691
11.0033 2.52579
11.0261 2.59708
11.0489 2.53408
11.0717 2.54206
11.0944 2.57576
11.1172 2.47372
11.14 2.54696
11.1628 2.53368
11.1856 2.43913
11.2083 2.36313
11.2311 2.32585
11.2539 2.28098
11.2767 2.21751
11.2995 2.19522
11.3223 2.05729
11.345 2.19185
11.3678 2.19206
11.3906 2.0926
11.4134 2.11552
11.4362 2.15835
11.459 2.19469
11.4817 2.14766
11.5045 2.19389
11.5273 2.31434
11.5501 2.41296
11.5729 2.47348
11.5957 2.4646
11.6184 2.36141
11.6412 2.46613
11.664 2.44918
11.6868 2.58969
11.7096 2.63461
11.7324 2.65629
11.7551 2.6299
11.7779 2.60323
11.8007 2.46674
11.8235 2.45273
11.8463 2.49559
11.8691 2.51575
11.8918 2.55361
11.9146 2.49143
11.9374 2.39347
11.9602 2.38815
11.983 2.27331
12.0057 2.26308
12.0285 2.32005
12.0513 2.35132
12.0741 2.31202
12.0969 2.38351
12.1197 2.41204
12.1424 2.37896
12.1652 2.27222
12.188 2.32834
12.2108 2.24064
12.2336 2.25367
12.2564 2.20991
12.2791 2.11254
12.3019 2.19441
12.3247 2.26156
12.3475 2.33247
12.3703 2.38147
12.3931 2.2827
12.4158 2.26142
12.4386 2.17937
12.4614 2.16855
12.4842 2.31809
12.507 2.25356
12.5298 2.20767
12.5525 2.18146
12.5753 2.10577
12.5981 2.12501
12.6209 2.09027
12.6437 2.04183
12.6664 1.97483
12.6892 1.8996
12.712 1.80529
12.7348 1.7696
12.7576 1.8122
12.7804 1.72929
12.8031 1.7729
12.8259 1.78453
12.8487 1.77065
12.8715 1.76655
12.8943 1.71714
12.9171 1.73535
12.9398 1.77273
12.9626 1.81173
12.9854 1.82801
13.0082 1.75236
13.031 1.78387
13.0538 1.79471
13.0765 1.78743
13.0993 1.79937
13.1221 1.84529
13.1449 1.85346
13.1677 1.75516
13.1905 1.68107
13.2132 1.69452
13.236 1.81903
13.2588 1.98872
13.2816 1.89655
13.3044 1.7904
13.3271 1.84778
13.3499 1.9137
13.3727 1.89603
13.3955 1.95797
13.4183 1.86584
13.4411 1.76716
13.4638 1.78003
13.4866 1.8428
13.5094 1.7264
13.5322 1.6362
13.555 1.6625
13.5778 1.70184
13.6005 1.76823
13.6233 1.8547
13.6461 1.80991
13.6689 1.77529
13.6917 1.76575
13.7145 1.73967
13.7372 1.69259
13.76 1.72868
13.7828 1.72602
13.8056 1.76906
13.8284 1.79503
13.8512 1.78443
13.8739 1.67558
13.8967 1.67645
13.9195 1.73834
13.9423 1.7849
13.9651 1.81528
13.9878 1.7996
14.0106 1.82263
14.0334 1.81752
14.0562 1.79883
14.079 1.78183
14.1018 1.63439
14.1245 1.66897
14.1473 1.78263
14.1701 1.77224
14.1929 1.88499
14.2157 1.91788
14.2385 1.85072
14.2612 1.67596
14.284 1.68009
14.3068 1.81252
14.3296 1.79957
14.3524 1.78204
14.3752 1.71275
14.3979 1.70028
14.4207 1.76252
14.4435 1.86644
14.4663 1.8442
14.4891 1.74249
14.5119 1.68753
14.5346 1.63195
14.5574 1.66928
14.5802 1.57984
14.603 1.62671
14.6258 1.66664
14.6486 1.61225
14.6713 1.60999
14.6941 1.59617
14.7169 1.69928
14.7397 1.70404
14.7625 1.6383
14.7852 1.72867
14.808 1.75303
14.8308 1.78092
14.8536 1.75374
14.8764 1.71132
14.8992 1.70919
14.9219 1.68999
14.9447 1.58959
14.9675 1.65995
14.9903 1.64514
15.0131 1.66099
15.0359 1.58768
15.0586 1.52586
15.0814 1.59061
15.1042 1.56601
15.127 1.70252
15.1498 1.72353
15.1726 1.61156
15.1953 1.63159
15.2181 1.60522
15.2409 1.54974
15.2637 1.5086
15.2865 1.57947
15.3093 1.60356
15.332 1.55629
15.3548 1.52444
15.3776 1.48418
15.4004 1.52767
15.4232 1.55
15.4459 1.47325
15.4687 1.41713
15.4915 1.3965
15.5143 1.47892
15.5371 1.54494
15.5599 1.57723
15.5826 1.5518
15.6054 1.46939
15.6282 1.47391
15.651 1.47165
15.6738 1.5113
15.6966 1.45979
15.7193 1.42435
15.7421 1.42051
15.7649 1.40253
15.7877 1.45329
15.8105 1.40597
15.8333 1.46684
15.856 1.45359
15.8788 1.43654
15.9016 1.51651
15.9244 1.49387
15.9472 1.53509
15.97 1.48305
15.9927 1.40571
16.0155 1.4374
16.0383 1.48745
16.0611 1.47132
16.0839 1.51403
16.1066 1.50565
16.1294 1.45756
16.1522 1.42008
16.175 1.37611
16.1978 1.30479
16.2206 1.33607
16.2433 1.41544
16.2661 1.46334
16.2889 1.49399
16.3117 1.48494
16.3345 1.39142
16.3573 1.37313
16.38 1.39752
16.4028 1.39094
16.4256 1.39708
16.4484 1.44378
16.4712 1.46883
16.494 1.37898
16.5167 1.47735
16.5395 1.43844
16.5623 1.51983
16.5851 1.47463
16.6079 1.44422
16.6307 1.4426
16.6534 1.39313
16.6762 1.3353
16.699 1.32082
16.7218 1.33773
16.7446 1.3032
16.7674 1.30058
16.7901 1.3306
16.8129 1.34813
16.8357 1.34704
16.8585 1.4298
16.8813 1.44133
16.904 1.37797
16.9268 1.30049
16.9496 1.18453
16.9724 1.13663
16.9952 1.23194
17.018 1.22695
17.0407 1.23987
17.0635 1.24352
17.0863 1.21749
17.1091 1.20443
17.1319 1.23788
17.1547 1.32427
17.1774 1.24418
17.2002 1.17597
17.223 1.18188
17.2458 1.15647
17.2686 1.10213
17.2914 1.13698
17.3141 1.1793
17.3369 1.15337
17.3597 1.16353
17.3825 1.10835
17.4053 1.18238
17.4281 1.25516
17.4508 1.22374
17.4736 1.1892
17.4964 1.19752
17.5192 1.20064
17.542 1.09719
17.5647 1.09319
17.5875 1.09544
17.6103 1.14028
17.6331 1.11372
17.6559 1.18622
17.6787 1.14586
17.7014 1.20469
17.7242 1.17556
17.747 1.12896
17.7698 1.14777
17.7926 1.13736
17.8154 1.18136
17.8381 1.23059
17.8609 1.24408
17.8837 1.2722
17.9065 1.22862
17.9293 1.22599
17.9521 1.22069
17.9748 1.19931
17.9976 1.19072
18.0204 1.06949
18.0432 1.17553
18.066 1.21331
18.0888 1.19031
18.1115 1.17248
18.1343 1.08656
18.1571 1.05849
18.1799 1.11683
18.2027 1.11102
18.2254 1.11114
18.2482 1.08914
18.271 1.06009
18.2938 1.13467
18.3166 1.16878
18.3394 1.17858
18.3621 1.14538
18.3849 1.1531
18.4077 1.12159
18.4305 1.10988
18.4533 1.15624
18.4761 1.20468
18.4988 1.12805
18.5216 1.12416
18.5444 1.09135
18.5672 1.08154
18.59 1.08174
18.6128 1.12951
18.6355 1.15669
18.6583 1.15141
18.6811 1.10318
18.7039 1.10896
18.7267 1.12925
18.7495 1.18386
18.7722 1.18133
18.795 1.17636
18.8178 1.12327
18.8406 1.06569
18.8634 1.0786
18.8862 1.02826
18.9089 1.10077
18.9317 1.13845
18.9545 1.15289
18.9773 1.07235
19.0001 1.17888
19.0228 1.15017
19.0456 1.04202
19.0684 1.00509
19.0912 0.955256
19.114 1.01255
19.1368 1.07133
19.1595 1.0408
19.1823 1.10005
19.2051 1.03827
19.2279 1.03592
19.2507 1.0687
19.2735 1.09981
19.2962 1.08292
19.319 1.10306
19.3418 1.07165
19.3646 1.04934
19.3874 0.97324
19.4102 1.0099
19.4329 1.02698
19.4557 1.05053
19.4785 1.05677
19.5013 1.01442
19.5241 0.993045
19.5469 1.00224
19.5696 0.999162
19.5924 1.00082
19.6152 0.950879
19.638 0.969067
19.6608 0.97102
19.6835 1.04083
19.7063 1.04031
19.7291 0.993516
19.7519 0.940206
19.7747 0.910946
19.7975 0.919624
19.8202 0.950798
19.843 0.892307
19.8658 0.891034
19.8886 0.930161
19.9114 0.943358
19.9342 0.929447
19.9569 0.98282
19.9797 0.995387
20.0025 1.01257
20.0253 0.966714
20.0481 0.974516
20.0709 1.01241
20.0936 0.979057
20.1164 0.964144
20.1392 0.907179
20.162 0.872826
20.1848 0.833147
20.2076 0.819546
20.2303 0.842089
20.2531 0.855907
20.2759 0.928388
20.2987 0.998845
20.3215 0.980108
20.3442 0.935617
20.367 0.844162
20.3898 0.856078
20.4126 0.84488
20.4354 0.886396
20.4582 0.870599
20.4809 0.87941
20.5037 0.907503
20.5265 0.893783
20.5493 0.897071
20.5721 0.925602
20.5949 0.921537
20.6176 0.829954
20.6404 0.851298
20.6632 0.831014
20.686 0.861243
20.7088 0.834418
20.7316 0.816289
20.7543 0.790924
20.7771 0.799348
20.7999 0.78296
20.8227 0.77503
20.8455 0.814665
20.8683 0.798723
20.891 0.805953
20.9138 0.788162
20.9366 0.818717
20.9594 0.832111
20.9822 0.824751
21.0049 0.806611
21.0277 0.818136
21.0505 0.746074
21.0733 0.759849
21.0961 0.753123
21.1189 0.765713
21.1416 0.716637
21.1644 0.715305
21.1872 0.782712
21.21 0.813695
21.2328 0.752488
21.2556 0.810939
21.2783 0.826555
21.3011 0.763489
21.3239 0.783559
21.3467 0.806763
21.3695 0.805272
21.3923 0.81661
21.415 0.783033
21.4378 0.788917
21.4606 0.772625
21.4834 0.767639
21.5062 0.768726
21.529 0.716998
21.5517 0.759548
21.5745 0.775986
21.5973 0.765903
21.6201 0.735033
21.6429 0.731346
21.6657 0.751275
21.6884 0.721925
21.7112 0.735885
21.734 0.759182
21.7568 0.736706
21.7796 0.689656
21.8023 0.64862
21.8251 0.664449
21.8479 0.729257
21.8707 0.723724
21.8935 0.727873
21.9163 0.704296
21.939 0.715701
21.9618 0.733375
21.9846 0.730647
